time	intensity
15.014	2719.659424
15.031	2824.784912
15.048	2758.020264
15.064	2600.888184
15.081	2504.799561
15.097	2475.696777
15.114	2532.78833
15.131	2662.842529
15.147	2756.813477
15.164	2762.958984
15.18	2646.635986
15.197	2387.051758
15.214	2163.61377
15.23	2185.436035
15.247	2410.466797
15.263	2604.665771
15.28	2635.071045
15.296	2653.38916
15.313	2787.250732
15.33	2869.499512
15.346	2850.116455
15.363	2836.904785
15.379	2831.655762
15.396	2877.30249
15.413	2904.954346
15.429	2697.474854
15.446	2524.488281
15.462	2738.105957
15.479	2989.240967
15.496	3025.918701
15.512	2990.950195
15.529	2907.269775
15.545	2747.040527
15.562	2584.343994
15.578	2528.664307
15.595	2557.915771
15.612	2551.623047
15.628	2511.793457
15.645	2500.197266
15.661	2476.702393
15.678	2372.231201
15.695	2224.870605
15.711	2158.692871
15.728	2140.956055
15.744	2086.126221
15.761	2080.43042
15.777	2206.821289
15.794	2374.440918
15.811	2394.65918
15.827	2299.806396
15.844	2290.731445
15.86	2349.007813
15.877	2311.285889
15.894	2210.917236
15.91	2287.435059
15.927	2642.241699
15.943	3078.600098
15.96	3434.349609
15.977	3770.119141
15.993	4082.791748
16.01	4166.29541
16.026	3884.188232
16.043	3397.960938
16.059	2973.688965
16.076	2725.050537
16.093	2620.537598
16.109	2581.638916
16.126	2667.224121
16.142	2902.870361
16.159	3062.229736
16.176	2991.137207
16.192	2804.67627
16.209	2602.130127
16.225	2327.681641
16.242	1920.824219
16.258	1473.648804
16.275	1312.800903
16.292	1570.402954
16.308	1795.337646
16.325	1657.585938
16.341	1543.860718
16.358	1812.226196
16.375	2160.064697
16.391	2270.190674
16.408	2242.290039
16.424	2213.104492
16.441	2167.901611
16.458	2125.669678
16.474	2177.673096
16.491	2482.603027
16.507	3078.754395
16.524	3591.012451
16.54	3504.044434
16.557	2690.607178
16.574	1733.023071
16.59	1547.643311
16.607	2142.370361
16.623	2659.407471
16.64	2680.535645
16.657	2430.31543
16.673	2200.425293
16.69	2132.339111
16.706	2200.396973
16.723	2242.782227
16.74	2216.199707
16.756	2256.843262
16.773	2315.719727
16.789	2232.863037
16.806	2083.826904
16.822	1992.750977
16.839	1948.115356
16.856	1936.907227
16.872	1995.588501
16.889	2088.804443
16.905	2115.794434
16.922	2092.736572
16.939	2104.325684
16.955	2214.213135
16.972	2462.635742
16.988	2709.344482
17.005	2757.61377
17.021	2662.845703
17.038	2559.94165
17.055	2526.004639
17.071	2633.354492
17.088	2861.193115
17.104	2909.153809
17.121	2407.188965
17.138	1695.067749
17.154	1672.63562
17.171	2334.813477
17.187	2836.633057
17.204	2890.066895
17.221	2726.951172
17.237	2519.817139
17.254	2411.429932
17.27	2424.678955
17.287	2413.477783
17.303	2332.345215
17.32	2266.671875
17.337	2311.325684
17.353	2491.767822
17.37	2742.151855
17.386	3096.479736
17.403	3754.301758
17.42	4812.336426
17.436	6146.470703
17.453	7627.771973
17.469	9078.370117
17.486	9984.515625
17.503	9976.154297
17.519	9235.456055
17.536	8020.104492
17.552	6496.556152
17.569	4988.479492
17.585	3836.247314
17.602	3237.240479
17.619	3206.88501
17.635	3839.080322
17.652	5422.605469
17.668	8100.696289
17.685	11671.73242
17.702	15618.28027
17.718	19116.41797
17.735	21165.07227
17.751	21164.52539
17.768	19251.94922
17.784	16100.79199
17.801	12482.90723
17.818	8989.701172
17.834	6087.960938
17.851	4100.432129
17.867	2987.68457
17.884	2539.321045
17.901	2581.756836
17.917	2859.913818
17.934	3176.993896
17.95	3614.625488
17.967	4458.295898
17.984	5889.525879
18	7731.104004
18.017	9590.699219
18.033	10895.86816
18.05	10975.24609
18.066	9854.736328
18.083	8227.277344
18.1	6535.603027
18.116	5015.54834
18.133	3924.055908
18.149	3288.906982
18.166	3007.056885
18.183	3212.713379
18.199	4145.800781
18.216	5868.697266
18.232	8375.765625
18.249	11603.56055
18.266	15179.55957
18.282	18345.14258
18.299	20095.70898
18.315	19755.78711
18.332	17486.5293
18.348	14094.55273
18.365	10558.22168
18.382	7538.934082
18.398	5285.708496
18.415	3856.663818
18.431	3108.465576
18.448	2765.692871
18.465	2663.266113
18.481	2715.604492
18.498	2861.220459
18.514	3238.432373
18.531	4114.177246
18.548	5469.512207
18.564	7015.141113
18.581	8618.927734
18.597	9955.910156
18.614	10375.65039
18.63	9722.28125
18.647	8381.832031
18.664	6796.848145
18.68	5303.151367
18.697	4081.04834
18.713	3292.505859
18.73	2982.710205
18.747	3138.51709
18.763	3977.921875
18.78	5853.775391
18.796	8769.474609
18.813	12244.19922
18.829	15754.18066
18.846	18655.09375
18.863	19872.77734
18.879	18877.64844
18.896	16268.10156
18.912	13004.65332
18.929	9755.757813
18.946	6925.233398
18.962	4853.754395
18.979	3642.979492
18.995	3069.297607
19.012	2811.704102
19.029	2664.930664
19.045	2680.175537
19.062	2925.216309
19.078	3416.749023
19.095	4318.516113
19.111	5687.615723
19.128	7325.375
19.145	8915.952148
19.161	10019.32422
19.178	10232.23633
19.194	9552.154297
19.211	8365.925781
19.228	6995.682129
19.244	5574.826172
19.261	4336.303223
19.277	3531.121826
19.294	3222.773438
19.311	3357.552979
19.327	4058.625977
19.344	5708.888184
19.36	8382.120117
19.377	11439.13965
19.393	14296.66309
19.41	16651.73047
19.427	17783.16016
19.443	17107.59961
19.46	14960.71777
19.476	12192.45313
19.493	9487.029297
19.51	7143.73877
19.526	5238.403809
19.543	3795.862061
19.559	2893.932129
19.576	2519.286133
19.592	2503.766357
19.609	2730.722656
19.626	3141.627441
19.642	3647.794434
19.659	4281.839844
19.675	5233.970215
19.692	6589.621582
19.709	8148.844238
19.725	9484.733398
19.742	10164.07422
19.758	9955.411133
19.775	8975.50293
19.792	7572.591309
19.808	6127.910156
19.825	4907.486328
19.841	4066.255371
19.858	3710.093994
19.874	3805.182373
19.891	4267.612793
19.908	5297.266602
19.924	7268.462402
19.941	10172.36914
19.957	13358.24512
19.974	16077.19922
19.991	17869.38281
20.007	18178.15234
20.024	16659.48633
20.04	13846.26465
20.057	10667.97949
20.074	7707.273438
20.09	5281.08252
20.107	3643.121582
20.123	2801.292725
20.14	2479.841797
20.156	2388.308105
20.173	2397.301025
20.19	2567.768066
20.206	3067.016602
20.223	3966.601318
20.239	5228.162598
20.256	6820.708008
20.273	8582.431641
20.289	10029.50586
20.306	10617.56445
20.322	10159.18164
20.339	8869.029297
20.355	7213.137207
20.372	5716.025391
20.389	4572.851563
20.405	3728.596191
20.422	3246.897461
20.438	3306.932617
20.455	3997.525146
20.472	5303.381836
20.488	7151.470703
20.505	9401.405273
20.521	11869.86719
20.538	14146.96777
20.555	15573.16602
20.571	15807.12402
20.588	14793.24121
20.604	12555.51563
20.621	9662.597656
20.637	7025.759766
20.654	5103.89502
20.671	3791.582764
20.687	2883.04834
20.704	2339.779297
20.72	2169.65918
20.737	2320.5271
20.754	2661.186523
20.77	3095.741943
20.787	3681.035156
20.803	4580.84082
20.82	5930.902832
20.837	7539.115723
20.853	8912.398438
20.87	9650.036133
20.886	9490.084961
20.903	8509.358398
20.919	7215.390625
20.936	5889.048828
20.953	4584.15625
20.969	3515.753906
20.986	2975.584473
21.002	3126.113281
21.019	3899.748047
21.036	5139.427734
21.052	6805.685547
21.069	9046.376953
21.085	11956.52051
21.102	15010.1084
21.118	17137.26758
21.135	17623.91602
21.152	16547.69531
21.168	14330.82324
21.185	11382.06055
21.201	8265.811523
21.218	5744.890625
21.235	4178.605469
21.251	3419.65625
21.268	3151.257324
21.284	2997.517578
21.301	2737.5271
21.318	2389.954102
21.334	2154.495605
21.351	2239.967041
21.367	2603.566162
21.384	2993.939697
21.4	3151.713867
21.417	2959.811035
21.434	2578.545898
21.45	2337.663818
21.467	2352.1875
21.483	2435.268066
21.5	2450.968262
21.517	2477.029297
21.533	2522.011719
21.55	2473.808838
21.566	2368.643799
21.583	2332.561035
21.6	2359.821533
21.616	2357.124023
21.633	2289.958008
21.649	2276.802246
21.666	2378.218262
21.682	2480.506592
21.699	2575.051758
21.716	2701.272705
21.732	2673.16748
21.749	2427.448975
21.765	2258.313477
21.782	2342.303711
21.799	2520.9104
21.815	2579.031738
21.832	2472.681152
21.848	2268.13208
21.865	2086.202393
21.882	2022.387573
21.898	2052.899658
21.915	2118.26123
21.931	2198.708496
21.948	2309.875488
21.964	2471.147217
21.981	2606.200195
21.998	2532.699951
22.014	2232.628174
22.031	2010.765991
22.047	2019.032959
22.064	2033.425415
22.081	1962.315674
22.097	2003.417725
22.114	2202.525635
22.13	2373.310547
22.147	2450.082764
22.163	2491.352295
22.18	2527.198486
22.197	2580.207275
22.213	2635.870117
22.23	2700.23584
22.246	2747.86377
22.263	2633.663818
22.28	2323.554932
22.296	2027.680298
22.313	1934.611572
22.329	2025.125366
22.346	2190.800049
22.363	2363.918945
22.379	2490.526123
22.396	2556.296387
22.412	2609.594482
22.429	2580.456299
22.445	2402.233887
22.462	2253.916748
22.479	2247.033936
22.495	2326.793701
22.512	2438.576904
22.528	2492.547363
22.545	2464.4021
22.562	2469.467529
22.578	2549.280029
22.595	2638.220947
22.611	2671.260742
22.628	2567.412109
22.645	2314.572021
22.661	2043.611816
22.678	1942.243042
22.694	2089.942139
22.711	2362.227783
22.727	2523.82959
22.744	2511.779541
22.761	2439.39917
22.777	2347.126221
22.794	2259.758789
22.81	2317.97168
22.827	2563.593018
22.844	2844.274658
22.86	2991.898193
22.877	2887.071777
22.893	2598.888428
22.91	2350.589844
22.926	2228.787354
22.943	2247.359619
22.96	2433.184814
22.976	2662.016113
22.993	2754.799561
23.009	2673.972168
23.026	2500.37207
23.043	2235.413086
23.059	1733.720825
23.076	1152.41394
23.092	1062.71106
23.109	1554.351563
23.126	2047.453857
23.142	2217.884766
23.159	2273.135742
23.175	2361.517334
23.192	2386.061279
23.208	2282.731445
23.225	2024.671997
23.242	1639.933472
23.258	1437.009277
23.275	1675.789063
23.291	2129.647217
23.308	2452.618652
23.325	2508.481201
23.341	2404.95459
23.358	2368.194824
23.374	2440.162109
23.391	2492.415283
23.408	2447.247803
23.424	2381.926514
23.441	2414.467529
23.457	2474.97583
23.474	2400.154297
23.49	2215.367432
23.507	2094.670166
23.524	2163.305908
23.54	2359.544922
23.557	2542.578857
23.573	2679.556396
23.59	2725.646973
23.607	2611.614502
23.623	2396.414795
23.64	2215.715576
23.656	2185.003174
23.673	2224.503418
23.689	2177.590088
23.706	2075.500977
23.723	2031.983032
23.739	2080.781738
23.756	2163.795898
23.772	2225.441895
23.789	2291.238281
23.806	2385.542969
23.822	2444.117432
23.839	2416.628906
23.855	2331.031006
23.872	2262.01001
23.889	2280.799072
23.905	2382.745361
23.922	2513.420654
23.938	2554.638184
23.955	2443.036377
23.971	2355.984863
23.988	2451.544678